{"resourceType":"Bundle","id":"84fd72fe-b781-409e-8619-6e418b4d62a1","meta":{"profile":["http://nphies.sa/fhir/ksa/nphies-fs/StructureDefinition/bundle|1.0.0"]},"type":"message","timestamp":"2025-10-16T21:25:30.773+00:00","entry":[{"fullUrl":"http://hmg.com/AlHamra/MessageHeader/ce4958aa-adb7-481b-9578-3a71aef79b2a","resource":{"resourceType":"MessageHeader","id":"ce4958aa-adb7-481b-9578-3a71aef79b2a","meta":{"profile":["http://nphies.sa/fhir/ksa/nphies-fs/StructureDefinition/message-header|1.0.0"]},"eventCoding":{"system":"http://nphies.sa/terminology/CodeSystem/ksa-message-events","code":"priorauth-request"},"destination":[{"endpoint":"http://nphies.sa/license/payer-license/7000911508","receiver":{"type":"Organization","identifier":{"system":"http://nphies.sa/license/payer-license","value":"7000911508"}}}],"sender":{"type":"Organization","identifier":{"system":"http://nphies.sa/license/provider-license","value":"10000300337258"}},"source":{"endpoint":"http://nphies.sa/license/payer-license/10000300337258"},"focus":[{"reference":"http://hmg.com/AlHamra/Claim/20251016212530773183"}]}},{"fullUrl":"http://hmg.com/AlHamra/Claim/20251016212530773183","resource":{"resourceType":"Claim","id":"20251016212530773183","meta":{"profile":["http://nphies.sa/fhir/ksa/nphies-fs/StructureDefinition/professional-priorauth|1.0.0"]},"extension":[{"url":"http://nphies.sa/fhir/ksa/nphies-fs/StructureDefinition/extension-encounter","valueReference":{"reference":"http://hmg.com/AlHamra/Encounter/7b23c6d8-4f72-4477-82c5-3766bb9a1258"}}],"identifier":[{"system":"http://hmg.com/AlHamra/Authorization","value":"20251016212530773183"}],"status":"active","type":{"coding":[{"system":"http://terminology.hl7.org/CodeSystem/claim-type","code":"professional"}]},"subType":{"coding":[{"system":"http://nphies.sa/terminology/CodeSystem/claim-subtype","code":"op"}]},"use":"preauthorization","patient":{"reference":"Patient/3035940"},"created":"2025-10-16T21:25:30.773Z","insurer":{"reference":"Organization/159"},"provider":{"reference":"Organization/377"},"priority":{"coding":[{"system":"http://terminology.hl7.org/CodeSystem/processpriority","code":"stat"}]},"related":[{"claim":{"identifier":{"system":"http://hmg.com/AlHamra/Authorization","value":"20251016182322994301"}},"relationship":{"coding":[{"system":"http://nphies.sa/terminology/CodeSystem/related-claim-relationship","code":"prior"}]}}],"payee":{"type":{"coding":[{"system":"http://terminology.hl7.org/CodeSystem/payeetype","code":"provider"}]}},"careTeam":[{"sequence":1,"provider":{"reference":"Practitioner/447670"},"role":{"coding":[{"system":"http://terminology.hl7.org/CodeSystem/claimcareteamrole","code":"primary"}]},"qualification":{"coding":[{"system":"http://nphies.sa/terminology/CodeSystem/practice-codes","code":"04.00"}]}}],"supportingInfo":[{"sequence":1,"category":{"coding":[{"system":"http://nphies.sa/terminology/CodeSystem/claim-information-category","code":"patient-history"}]},"valueString":"none .\n[{\"cDate\":null,\"cIndication\":null,\"cProcedure\":\"none \"}]"},{"sequence":2,"category":{"coding":[{"system":"http://nphies.sa/terminology/CodeSystem/claim-information-category","code":"investigation-result"}]},"code":{"coding":[{"system":"http://nphies.sa/terminology/CodeSystem/investigation-result","code":"INP","display":"Investigation(s) not performed"}]}},{"sequence":3,"category":{"coding":[{"system":"http://nphies.sa/terminology/CodeSystem/claim-information-category","code":"treatment-plan"}]},"valueString":"20:21hr patient came in er with the complain of pain in surgical area ( ceaseran section done 7days ago)\n20:25&nbsp; &nbsp; &nbsp;hr ensured pateient safety ,provided privacy. side rails up . gave call bell .proper identification done : id band attached&nbsp;\n20: 30&nbsp; &nbsp;hr vitals were taken and recorded&nbsp;\n&nbsp;20:35&nbsp; &nbsp; hr patient was seen by doctor...sarah&nbsp;\n20:40hr&nbsp; called receptionist forr invoice , waiting for approval&nbsp;\n&nbsp;21:10HR approval came&nbsp;\n21:15hr CONFIRMED ORDER FROM SYSTEM .,carried out&nbsp;\n&nbsp; &nbsp; 21:20hr CANNUla inseted&nbsp; &nbsp;USING gauge 20 IN .right metacarpal vein with ASEPTIC TECHINQUE&nbsp;\n&nbsp; 21:30&nbsp; &nbsp;hr blood sample collected&nbsp; in sterile technique&nbsp;\n&nbsp; &nbsp; 21:35 hr blood sample were sent to labrotary\n&nbsp; &nbsp; 21:40 Hr waiting for labrotary results\n21:45 doctor added new order&nbsp;\n21:50hr waiting for approval for added order of blood culture , ultrasound ,&nbsp; vaginal swab , urine culture\n22:10hr approval rejected one time&nbsp;\n&nbsp; &nbsp;22:15&nbsp; hr REASSESSEMENT DONE BY doctor osma and doctor sarah&nbsp;\n22:25hr rejected approval for second time with same reason&nbsp;\n22:30hr&nbsp; aproval officer told to chage code for request , doctor requested again with new code&nbsp;\n22:50 hr waiting for approval&nbsp;\n23:40hr approval came&nbsp;\n23:45hr called radiology department for ultrasound&nbsp;\n23:50hr shifted patient to radiology department for ultrasound in wheelchair with porter&nbsp;"},{"sequence":4,"category":{"coding":[{"system":"http://nphies.sa/terminology/CodeSystem/claim-information-category","code":"physical-examination"}]},"valueString":"N/A"},{"sequence":5,"category":{"coding":[{"system":"http://nphies.sa/terminology/CodeSystem/claim-information-category","code":"history-of-present-illness"}]},"valueString":"POST CS SUSPECTED SURGICAL WOUND INFECTION WITH HOTNESS ,REDNESS ,&nbsp; TENDERNESS AND INDURATION&nbsp;\nUPDATE :\nU/S ? ABDOMINAL WALL of 16-10-2025:? Both rectus sheaths how hematomas, more on the right side from the level of umbilicus downwards.? Subcutaneous collections with slight turbidity at the level of caesarean scar.? Intraperitoneal: Organized collections at both sides of the pelvis, mostly organized hematomas\n&nbsp;\nACCORDING TO US REPORT WE NEED CT PELVIS AND ABDOMEN + ADMISSION UNDER OBSERVATION AND FOR FURTHER INVESTIGATIONS AND IV ANTIBIOBIOTICS&nbsp;\n&nbsp;\n29 years old\nmedically : free\nsurgically : primary LSCS&nbsp; at 8/10/2025 due to failed induction after pprom\n..........\ncame complaining of hotness and pain at the surgical site , patient reports no history of fever\n..........\non exam :\npatient is fully conscious and alert\nvitally stable :\ntemp : 36.5\nabdomen : lax , no tenderness\nnormal lochia&nbsp;\nCS scar : showes hotness, tenderness , induration along and above the cs scar\n...\nplan :\ndr lana her primary consultant informed , for :\nCBC ( TLC : 13 , HB : 9.9&nbsp; )&nbsp; , CRP (274)\nURINE AND BLOOD CULTURE\nHVS&nbsp;\nSUPERFICIAL US&nbsp;\nU/S ? ABDOMINAL WALL of 16-10-2025:? Both rectus sheaths how hematomas, more on the right side from the level of umbilicus downwards.? Subcutaneous collections with slight turbidity at the level of caesarean scar.? Intraperitoneal: Organized collections at both sides of the pelvis, mostly organized hematomas\nCT SCAN WITH CONTRAST&nbsp;\nADMISSION FOR IV ANTIBIOTICS&nbsp;\nSURGICAL CONSULTATION&nbsp;\nthankl you for consultation&nbsp;\n29 years old lady&nbsp;\nday #7 post CS&nbsp;\npresented to ER as case of abdominal pain at the site of surgery&nbsp;\nno chills no rigors&nbsp;\n&nbsp;\nOE:reddness at the right side of the wound , minimal swelling , no tenderness&nbsp;\n&nbsp;\nimpression need US to rule out collection&nbsp;"},{"sequence":6,"category":{"coding":[{"system":"http://nphies.sa/terminology/CodeSystem/claim-information-category","code":"temperature"}]},"valueQuantity":{"value":36.8,"system":"http://unitsofmeasure.org","code":"Cel"}},{"sequence":7,"category":{"coding":[{"system":"http://nphies.sa/terminology/CodeSystem/claim-information-category","code":"respiratory-rate"}]},"valueQuantity":{"value":18,"system":"http://unitsofmeasure.org","code":"/min"}},{"sequence":8,"category":{"coding":[{"system":"http://nphies.sa/terminology/CodeSystem/claim-information-category","code":"oxygen-saturation"}]},"valueQuantity":{"value":97,"system":"http://unitsofmeasure.org","code":"%"}},{"sequence":9,"category":{"coding":[{"system":"http://nphies.sa/terminology/CodeSystem/claim-information-category","code":"pulse"}]},"valueQuantity":{"value":88,"system":"http://unitsofmeasure.org","code":"/min"}},{"sequence":10,"category":{"coding":[{"system":"http://nphies.sa/terminology/CodeSystem/claim-information-category","code":"vital-sign-height"}]},"valueQuantity":{"value":157.4,"system":"http://unitsofmeasure.org","code":"cm"}},{"sequence":11,"category":{"coding":[{"system":"http://nphies.sa/terminology/CodeSystem/claim-information-category","code":"vital-sign-weight"}]},"valueQuantity":{"value":88.05,"system":"http://unitsofmeasure.org","code":"kg"}},{"sequence":12,"category":{"coding":[{"system":"http://nphies.sa/terminology/CodeSystem/claim-information-category","code":"vital-sign-diastolic"}]},"valueQuantity":{"value":54,"system":"http://unitsofmeasure.org","code":"mm[Hg]"}},{"sequence":13,"category":{"coding":[{"system":"http://nphies.sa/terminology/CodeSystem/claim-information-category","code":"vital-sign-systolic"}]},"valueQuantity":{"value":98,"system":"http://unitsofmeasure.org","code":"mm[Hg]"}},{"sequence":14,"category":{"coding":[{"system":"http://nphies.sa/terminology/CodeSystem/claim-information-category","code":"chief-complaint"}]},"code":{"text":"wound pain"}},{"sequence":15,"category":{"coding":[{"system":"http://nphies.sa/terminology/CodeSystem/claim-information-category","code":"attachment"}]},"timingPeriod":{"start":"2025-10-17","end":"2025-10-17"},"valueAttachment":{"contentType":"application/pdf","data":"","title":"Dr.SulaimanAlHabibHospital-AlHamra_AdministrativeRecords_Other_17.10.2025_0:2423","creation":"2025-10-17"}},{"sequence":16,"category":{"coding":[{"system":"http://nphies.sa/terminology/CodeSystem/claim-information-category","code":"attachment"}]},"timingPeriod":{"start":"2025-10-17","end":"2025-10-17"},"valueAttachment":{"contentType":"application/pdf","data":"","title":"Dr.SulaimanAlHabibHospital-AlHamra_AdministrativeRecords_Other_17.10.2025_0:2422","creation":"2025-10-17"}},{"sequence":17,"category":{"coding":[{"system":"http://nphies.sa/terminology/CodeSystem/claim-information-category","code":"attachment"}]},"timingPeriod":{"start":"2025-10-17","end":"2025-10-17"},"valueAttachment":{"contentType":"application/pdf","data":"","title":"Dr.SulaimanAlHabibHospital-AlHamra_AdministrativeRecords_Other_17.10.2025_0:2421","creation":"2025-10-17"}}],"diagnosis":[{"sequence":1,"diagnosisCodeableConcept":{"coding":[{"system":"http://hl7.org/fhir/sid/icd-10-am","code":"L03.3"}]},"type":[{"coding":[{"system":"http://nphies.sa/terminology/CodeSystem/diagnosis-type","code":"principal"}]}]}],"insurance":[{"sequence":1,"focal":true,"coverage":{"reference":"Coverage/1234"}}],"item":[{"extension":[{"url":"http://nphies.sa/fhir/ksa/nphies-fs/StructureDefinition/extension-tax","valueMoney":{"value":0,"currency":"SAR"}},{"url":"http://nphies.sa/fhir/ksa/nphies-fs/StructureDefinition/extension-patient-share","valueMoney":{"value":0,"currency":"SAR"}},{"url":"http://nphies.sa/fhir/ksa/nphies-fs/StructureDefinition/extension-package","valueBoolean":false},{"url":"http://nphies.sa/fhir/ksa/nphies-fs/StructureDefinition/extension-maternity","valueBoolean":false}],"sequence":4768873,"careTeamSequence":[1],"diagnosisSequence":[1],"informationSequence":[1,2,3,4,5,6,7,8,9,10,11,12,13,14,15,16,17],"productOrService":{"coding":[{"system":"http://nphies.sa/terminology/CodeSystem/imaging","code":"56507-00-00","display":"CT abdomen & pelvis w IV contrast medium"},{"system":"http://hmg.com/AlHamra/product-or-service","code":"03033066","display":"CT SCAN - ABDOMEN AND PELVIS (WITH CONTRAST)"}]},"servicedDate":"2025-10-16","quantity":{"value":1},"unitPrice":{"value":1680,"currency":"SAR"},"net":{"value":1680,"currency":"SAR"}},{"extension":[{"url":"http://nphies.sa/fhir/ksa/nphies-fs/StructureDefinition/extension-tax","valueMoney":{"value":0,"currency":"SAR"}},{"url":"http://nphies.sa/fhir/ksa/nphies-fs/StructureDefinition/extension-patient-share","valueMoney":{"value":0,"currency":"SAR"}},{"url":"http://nphies.sa/fhir/ksa/nphies-fs/StructureDefinition/extension-package","valueBoolean":false},{"url":"http://nphies.sa/fhir/ksa/nphies-fs/StructureDefinition/extension-maternity","valueBoolean":false}],"sequence":4768169,"careTeamSequence":[1],"diagnosisSequence":[1],"informationSequence":[1,2,3,4,5,6,7,8,9,10,11,12,13,14,15,16,17],"productOrService":{"coding":[{"system":"http://nphies.sa/terminology/CodeSystem/imaging","code":"99999-99-92","display":"Unlisted imaging procedure"},{"system":"http://hmg.com/AlHamra/product-or-service","code":"03032041","display":"U/S - UNLISTED-REGION OF INTEREST"}]},"servicedDate":"2025-10-16","quantity":{"value":1},"unitPrice":{"value":368,"currency":"SAR"},"net":{"value":368,"currency":"SAR"}},{"extension":[{"url":"http://nphies.sa/fhir/ksa/nphies-fs/StructureDefinition/extension-tax","valueMoney":{"value":0,"currency":"SAR"}},{"url":"http://nphies.sa/fhir/ksa/nphies-fs/StructureDefinition/extension-patient-share","valueMoney":{"value":0,"currency":"SAR"}},{"url":"http://nphies.sa/fhir/ksa/nphies-fs/StructureDefinition/extension-package","valueBoolean":false},{"url":"http://nphies.sa/fhir/ksa/nphies-fs/StructureDefinition/extension-maternity","valueBoolean":false}],"sequence":4768170,"careTeamSequence":[1],"diagnosisSequence":[1],"informationSequence":[1,2,3,4,5,6,7,8,9,10,11,12,13,14,15,16,17],"productOrService":{"coding":[{"system":"http://nphies.sa/terminology/CodeSystem/laboratory","code":"73050-41-10","display":"Quantitative urine culture and colony count for bacteria"},{"system":"http://hmg.com/AlHamra/product-or-service","code":"02015022","display":"CULTURE & SENSITIVITY URINE"}]},"servicedDate":"2025-10-16","quantity":{"value":1},"unitPrice":{"value":231,"currency":"SAR"},"net":{"value":231,"currency":"SAR"}},{"extension":[{"url":"http://nphies.sa/fhir/ksa/nphies-fs/StructureDefinition/extension-tax","valueMoney":{"value":0,"currency":"SAR"}},{"url":"http://nphies.sa/fhir/ksa/nphies-fs/StructureDefinition/extension-patient-share","valueMoney":{"value":0,"currency":"SAR"}},{"url":"http://nphies.sa/fhir/ksa/nphies-fs/StructureDefinition/extension-package","valueBoolean":false},{"url":"http://nphies.sa/fhir/ksa/nphies-fs/StructureDefinition/extension-maternity","valueBoolean":false}],"sequence":4768171,"careTeamSequence":[1],"diagnosisSequence":[1],"informationSequence":[1,2,3,4,5,6,7,8,9,10,11,12,13,14,15,16,17],"productOrService":{"coding":[{"system":"http://nphies.sa/terminology/CodeSystem/laboratory","code":"73050-40-80","display":"Culture and sensitivity of high vaginal swab (HVS)"},{"system":"http://hmg.com/AlHamra/product-or-service","code":"02015010","display":"CULTURE & SENSITIVITY HVS (HIGH VAGINAL SWAB)"}]},"servicedDate":"2025-10-16","quantity":{"value":1},"unitPrice":{"value":168,"currency":"SAR"},"net":{"value":168,"currency":"SAR"}}],"total":{"value":2447,"currency":"SAR"}}},{"fullUrl":"http://hmg.com/AlHamra/Patient/3035940","resource":{"resourceType":"Patient","id":"3035940","meta":{"profile":["http://nphies.sa/fhir/ksa/nphies-fs/StructureDefinition/patient|1.0.0"]},"extension":[{"url":"http://nphies.sa/fhir/ksa/nphies-fs/StructureDefinition/extension-occupation","valueCodeableConcept":{"coding":[{"system":"http://nphies.sa/terminology/CodeSystem/occupation","code":"administration"}]}}],"identifier":[{"type":{"coding":[{"system":"http://terminology.hl7.org/CodeSystem/v2-0203","code":"NI"}]},"system":"http://nphies.sa/identifier/nationalid","value":"1095681308"}],"active":true,"name":[{"use":"official","text":"ELAF LAFI - AL SHAMMARI","family":"AL SHAMMARI","given":["ELAF","LAFI"]}],"telecom":[{"system":"phone","value":"+966555993197"}],"gender":"female","_gender":{"extension":[{"url":"http://nphies.sa/fhir/ksa/nphies-fs/StructureDefinition/extension-ksa-administrative-gender","valueCodeableConcept":{"coding":[{"system":"http://nphies.sa/terminology/CodeSystem/ksa-administrative-gender","code":"female"}]}}]},"birthDate":"1995-12-02","maritalStatus":{"coding":[{"system":"http://terminology.hl7.org/CodeSystem/v3-MaritalStatus","code":"M"}]}}},{"fullUrl":"http://hmg.com/AlHamra/Coverage/1234","resource":{"resourceType":"Coverage","id":"1234","meta":{"profile":["http://nphies.sa/fhir/ksa/nphies-fs/StructureDefinition/coverage|1.0.0"]},"identifier":[{"system":"http://payer.com/memberid","value":"001095681308001"}],"status":"active","type":{"coding":[{"system":"http://nphies.sa/terminology/CodeSystem/coverage-type","code":"EHCPOL"}]},"policyHolder":{"reference":"http://hmg.com/AlHamra/Organization/12345"},"beneficiary":{"reference":"http://hmg.com/AlHamra/Patient/3035940"},"relationship":{"coding":[{"system":"http://terminology.hl7.org/CodeSystem/subscriber-relationship","code":"self","display":"self"}]},"payor":[{"reference":"http://hmg.com/AlHamra/Organization/159"}],"class":[{"type":{"coding":[{"system":"http://terminology.hl7.org/CodeSystem/coverage-class","code":"plan"}]},"value":"42721155"}]}},{"fullUrl":"http://hmg.com/AlHamra/Organization/377","resource":{"resourceType":"Organization","id":"377","meta":{"profile":["http://nphies.sa/fhir/ksa/nphies-fs/StructureDefinition/provider-organization|1.0.0"]},"extension":[{"url":"http://nphies.sa/fhir/ksa/nphies-fs/StructureDefinition/extension-provider-type","valueCodeableConcept":{"coding":[{"system":"http://nphies.sa/terminology/CodeSystem/provider-type","code":"1","display":"Hospital"}]}}],"identifier":[{"use":"official","system":"http://nphies.sa/license/provider-license","value":"10000300337258"}],"active":true,"type":[{"coding":[{"system":"http://nphies.sa/terminology/CodeSystem/organization-type","code":"prov"}]}],"name":"Dr Sulaiman Al Habib Hospital- Al Hamra"}},{"fullUrl":"http://hmg.com/AlHamra/Organization/159","resource":{"resourceType":"Organization","id":"159","meta":{"profile":["http://nphies.sa/fhir/ksa/nphies-fs/StructureDefinition/insurer-organization|1.0.0"]},"identifier":[{"use":"official","system":"http://nphies.sa/license/payer-license","value":"7000911508"}],"active":true,"type":[{"coding":[{"system":"http://nphies.sa/terminology/CodeSystem/organization-type","code":"ins"}]}],"name":"NCCI"}},{"fullUrl":"http://hmg.com/AlHamra/Encounter/7b23c6d8-4f72-4477-82c5-3766bb9a1258","resource":{"resourceType":"Encounter","id":"7b23c6d8-4f72-4477-82c5-3766bb9a1258","meta":{"profile":["http://nphies.sa/fhir/ksa/nphies-fs/StructureDefinition/encounter|1.0.0"]},"extension":[{"url":"http://nphies.sa/fhir/ksa/nphies-fs/StructureDefinition/extension-serviceEventType","valueCodeableConcept":{"coding":[{"system":"http://nphies.sa/terminology/CodeSystem/service-event-type","code":"ICSE","display":"Initial Client Service Event"}]}}],"identifier":[{"system":"http://hmg.com/AlHamra/Encounter","value":"518785"}],"status":"finished","class":{"system":"http://terminology.hl7.org/CodeSystem/v3-ActCode","code":"AMB","display":"ambulatory"},"subject":{"reference":"http://hmg.com/AlHamra/Patient/3035940"},"period":{"start":"2025-10-16T20:21:37+03:00","end":"2025-10-19T00:25:30+03:00"},"serviceProvider":{"reference":"http://hmg.com/AlHamra/Organization/377"}}},{"fullUrl":"http://hmg.com/AlHamra/Organization/12345","resource":{"resourceType":"Organization","id":"12345","meta":{"profile":["http://nphies.sa/fhir/ksa/nphies-fs/StructureDefinition/policyholder-organization|1.0.0"]},"identifier":[{"system":"http://nphies.sa/identifier/organization","value":"7000102744"}],"active":true,"name":"al rajhi bank"}},{"fullUrl":"http://hmg.com/AlHamra/Practitioner/447670","resource":{"resourceType":"Practitioner","id":"447670","meta":{"profile":["http://nphies.sa/fhir/ksa/nphies-fs/StructureDefinition/practitioner|1.0.0"]},"extension":[{"url":"http://nphies.sa/fhir/ksa/nphies-fs/StructureDefinition/extension-ksa-administrative-gender","valueCodeableConcept":{"coding":[{"system":"http://nphies.sa/terminology/CodeSystem/ksa-administrative-gender","code":"female"}]}}],"identifier":[{"type":{"coding":[{"system":"http://terminology.hl7.org/CodeSystem/v2-0203","code":"MD"}]},"system":"http://nphies.sa/license/practitioner-license","value":"24707454"}],"active":true,"name":[{"text":"SARA ALSAYED AHMED SARA ALSAYED AHMED"}],"gender":"female"}}]}